t(s),F(kg),T(K)
0.0,0.003,301.4
0.149,0.002,300.9
0.423,0.003,301.4
0.698,0.002,301.4
0.789,0.003,301.65
2.162,0.003,301.15
2.436,0.002,301.15
2.71,0.002,301.15
2.893,0.002,301.4
3.442,0.001,301.15
3.716,0.002,301.15
3.99,0.001,301.9
4.448,-0.001,301.4
4.722,-0.002,301.9
5.18,-0.001,302.65
5.454,-0.001,302.9
5.728,-0.0,303.4
5.911,-0.001,303.4
6.46,-0.001,303.65
6.734,-0.001,304.15
7.191,-0.001,304.15
7.466,-0.0,304.15
7.74,-0.001,304.4
8.197,-0.001,304.9
8.472,-0.0,304.65
8.746,-0.0,305.15
8.929,-0.001,305.15
9.478,-0.001,304.9
9.753,-0.0,304.9
10.21,-0.0,305.65
10.484,-0.0,305.15
10.575,-0.0,305.15
11.947,0.0,305.65
12.222,-0.0,305.15
12.679,-0.0,305.9
12.954,0.0,305.9
13.227,0.0,305.9
13.685,0.0,305.65
13.959,0.001,305.65
14.234,0.001,305.9
14.691,0.001,305.9
14.966,0.001,305.4
15.24,0.001,305.9
15.697,0.001,305.9
15.971,0.0,305.4
16.246,0.001,305.9
16.703,0.001,305.9
16.978,0.001,305.65
17.527,0.001,305.9
17.71,0.001,305.65
17.984,0.001,306.15
18.532,0.0,306.15
18.99,0.001,305.9
19.264,0.002,305.9
19.539,0.001,305.9
19.722,0.001,306.4
20.27,0.001,306.9
20.544,0.001,307.15
20.727,0.001,307.15
21.276,0.001,307.9
21.459,0.001,308.15
22.008,0.001,308.65
22.282,0.001,309.15
22.466,0.0,308.65
23.014,0.001,309.65
23.288,0.001,309.9
23.471,0.001,310.4
24.02,0.001,311.15
24.294,0.001,311.9
24.478,0.001,311.4
25.026,0.001,312.65
25.3,0.002,313.15
25.758,0.001,313.65
26.032,0.001,313.65
26.307,0.001,314.65
26.49,0.001,314.15
27.038,0.001,314.9
27.312,0.002,315.65
27.495,0.002,315.9
28.044,0.001,315.9
28.319,0.002,316.15
28.502,0.002,316.4
28.776,0.002,316.15
29.325,0.001,317.15
29.508,0.001,317.4
29.782,0.002,317.15
30.331,0.001,317.65
30.697,0.002,317.65
31.063,0.002,317.9
31.52,0.002,317.65
31.794,0.002,318.15
32.068,0.002,318.15
32.251,0.002,318.4
32.8,0.003,317.9
33.075,0.002,317.65
33.258,0.002,317.9
33.806,0.002,317.9
34.081,0.002,318.4
34.264,0.002,317.65
34.812,0.002,318.15
35.087,0.002,318.15
35.27,0.002,317.65
35.819,0.002,318.4
36.093,0.003,318.15
36.276,0.002,318.4
36.824,0.002,317.9
37.099,0.003,317.9
37.373,0.002,317.9
37.831,0.002,317.65
38.105,0.002,318.15
38.288,0.003,317.9
38.837,0.003,317.65
39.111,0.003,317.15
39.568,0.002,317.65
39.843,0.003,317.65
40.117,0.003,317.65
40.575,0.003,317.15
40.849,0.003,317.4
41.164,0.003,317.4
41.58,0.003,316.9
41.855,0.003,317.15
42.038,0.003,317.4
42.587,0.003,317.4
42.861,0.003,317.15
43.044,0.003,317.15
43.593,0.003,316.9
43.868,0.004,316.65
44.324,0.004,316.65
44.599,0.003,316.4
44.873,0.003,316.15
45.331,0.004,316.15
45.605,0.004,316.4
45.88,0.003,316.65
46.337,0.003,316.4
46.611,0.003,316.4
46.977,0.003,315.9
47.343,0.003,316.15
47.617,0.003,316.15
47.892,0.003,316.15
48.349,0.004,316.15
48.623,0.003,316.15
48.897,0.004,315.9
49.355,0.003,315.65
49.629,0.003,315.9
50.087,0.004,316.15
50.361,0.003,315.65
50.636,0.003,315.9
50.819,0.003,315.65
51.368,0.003,315.9
51.642,0.003,315.9
51.825,0.003,315.4
52.373,0.003,315.4
52.648,0.003,315.65
53.105,0.003,314.9
53.38,0.003,314.9
53.654,0.003,315.15
54.111,0.002,315.15
54.385,0.003,314.65
54.66,0.003,314.9
55.117,0.003,315.15
55.392,0.003,315.4
55.666,0.003,314.9
56.124,0.003,314.4
56.398,0.003,315.15
56.855,0.003,314.9
57.129,0.003,314.65
57.404,0.003,314.4
57.861,0.003,314.65
58.136,0.003,314.65
58.41,0.003,314.4
58.867,0.002,314.9
59.416,0.003,314.65
59.69,0.003,314.15
59.873,0.003,314.4
60.422,0.003,314.65
60.696,0.003,314.4
60.879,0.003,314.4
61.428,0.003,314.4
61.702,0.003,314.4
62.159,0.003,314.4
62.433,0.003,313.9
62.891,0.003,313.9
63.165,0.003,314.4
63.439,0.003,314.15
63.896,0.004,313.9
64.171,0.003,314.15
64.628,0.003,313.9
64.902,0.004,314.4
65.451,0.003,314.15
65.908,0.004,314.15
66.183,0.004,313.65
66.457,0.003,313.65
66.915,0.004,313.9
67.189,0.004,314.15
67.463,0.004,313.65
67.92,0.004,313.65
68.195,0.004,314.15
68.469,0.004,314.15
68.927,0.003,314.15
69.201,0.004,314.15
69.659,0.004,314.4
69.932,0.004,314.9
70.481,0.004,314.9
70.664,0.004,315.15
70.939,0.004,315.9
71.488,0.004,316.65
71.671,0.004,316.65
72.219,0.004,317.65
72.493,0.005,318.9
72.676,0.005,318.9
73.225,0.004,320.15
73.408,0.004,320.65
73.683,0.004,321.4
74.231,0.004,322.4
74.414,0.005,323.15
74.688,0.004,324.15
75.237,0.004,325.4
75.42,0.004,325.4
75.878,0.004,327.15
76.244,0.004,327.9
76.427,0.004,328.4
76.975,0.004,329.9
77.249,0.004,330.15
77.432,0.005,330.9
77.981,0.005,332.9
78.256,0.004,333.15
78.439,0.004,333.9
78.988,0.005,335.15
79.262,0.005,335.65
79.445,0.005,336.65
79.993,0.005,338.65
80.268,0.004,338.65
80.725,0.004,341.15
81.001,0.005,341.65
81.457,0.004,343.65
81.731,0.005,344.4
82.005,0.005,345.65
82.463,0.005,347.15
82.737,0.004,348.65
83.012,0.004,349.4
83.469,0.005,351.4
83.743,0.005,352.15
84.017,0.005,353.65
84.475,0.005,355.4
84.749,0.005,356.65
85.024,0.005,357.65
85.207,0.005,357.9
85.756,0.005,360.4
86.212,0.004,362.65
86.487,0.005,363.15
87.036,0.005,364.65
87.219,0.004,365.15
87.493,0.004,367.15
88.042,0.004,368.9
88.499,0.004,369.65
88.773,0.005,370.9
89.048,0.004,372.15
89.505,0.004,373.4
89.78,0.005,374.15
90.054,0.004,375.4
90.512,0.003,376.65
90.877,0.004,378.15
91.243,0.004,379.65
91.517,0.004,380.4
91.792,0.004,380.9
92.066,0.003,381.9
92.524,0.004,382.65
92.798,0.004,384.15
93.255,0.003,384.65
93.529,0.003,385.4
93.804,0.004,385.9
93.987,0.003,386.65
94.536,0.004,387.4
94.81,0.004,388.4
95.268,0.004,389.15
95.542,0.003,390.15
96.0,0.003,390.65
96.274,0.004,391.9
96.548,0.004,392.15
96.822,0.003,392.9
97.28,0.003,393.9
97.554,0.003,394.9
97.829,0.003,395.65
98.286,0.004,397.15
98.56,0.003,397.4
98.834,0.004,398.65
99.292,0.004,399.4
99.566,0.003,400.15
99.841,0.003,400.4
100.298,0.004,401.9
100.847,0.003,403.4
101.165,0.004,403.9
101.304,0.004,403.9
101.853,0.004,405.9
102.036,0.003,406.4
102.585,0.003,406.9
102.859,0.003,408.15
103.042,0.004,408.4
103.591,0.004,409.9
103.774,0.004,410.15
104.049,0.004,410.9
104.597,0.004,411.9
104.78,0.004,412.65
105.054,0.004,413.15
105.329,0.004,413.9
105.786,0.004,414.9
106.061,0.004,415.4
106.335,0.004,415.65
106.792,0.004,417.4
107.066,0.004,417.9
107.341,0.004,418.4
107.798,0.004,419.4
108.073,0.004,418.9
108.347,0.004,419.9
108.804,0.004,420.65
109.262,0.004,422.15
109.627,0.004,422.9
109.81,0.004,422.9
110.359,0.004,423.4
110.634,0.004,423.65
111.001,0.004,424.15
111.365,0.004,425.15
111.639,0.004,425.15
111.822,0.004,425.15
112.371,0.004,423.9
112.646,0.004,424.65
113.103,0.003,424.4
113.377,0.004,424.9
113.834,0.003,424.9
114.109,0.004,425.15
114.383,0.003,424.4
114.84,0.002,424.4
115.114,0.002,423.9
115.389,0.002,423.4
115.846,0.002,423.4
116.121,0.002,423.4
116.578,0.001,422.65
116.853,0.001,422.4
117.127,0.002,421.9
117.584,0.0,421.15
117.858,-0.002,420.65
118.133,0.002,420.4
118.59,0.002,419.4
118.865,0.002,419.15
119.139,0.003,418.4
119.597,0.003,417.65
119.871,0.002,417.15
120.145,0.003,416.4
120.603,0.003,415.4
120.877,0.003,415.15
121.426,0.003,414.15
121.609,0.003,413.9
121.883,0.003,412.65
122.341,0.002,412.15
122.615,0.002,411.15
122.89,0.002,410.4
123.346,0.002,408.4
123.621,0.003,408.15
123.895,0.003,407.15
124.353,0.003,405.65
124.627,0.002,404.65
124.901,0.002,404.15
125.45,-0.002,401.4
125.633,-0.002,401.15
125.907,0.0,399.4
126.182,-0.001,399.65
126.639,0.001,397.9
126.914,0.0,397.4
127.463,0.001,395.65
127.646,0.001,395.15
128.103,0.003,393.15
128.377,0.003,392.9
129.2,0.003,390.4
129.383,0.003,390.15
129.658,-0.001,389.4
130.206,-0.0,388.65
130.389,-0.0,387.9
130.846,-0.001,387.4
131.212,-0.001,386.65
131.395,-0.001,385.4
131.67,0.0,385.4
132.219,-0.0,384.4
132.402,-0.0,383.9
132.951,0.0,382.65
133.134,-0.0,382.9
133.682,-0.0,382.15
133.956,0.0,381.9
134.139,0.0,381.15
134.414,-0.001,381.4
134.963,0.002,380.4
135.146,0.001,379.9
135.42,-0.0,379.65
135.877,-0.001,378.9
136.151,-0.001,378.4
136.426,-0.001,378.65
136.975,-0.001,377.65
137.158,-0.0,377.4
137.432,-0.001,377.15
137.706,-0.001,376.9
138.163,-0.001,376.65
138.438,-0.0,375.65
138.895,-0.001,375.9
139.17,-0.0,375.65
139.443,-0.0,375.4
139.992,-0.001,374.9
140.175,-0.001,374.15
140.724,-0.0,374.15
140.816,-0.001,374.15
142.005,-0.001,373.4
142.736,-0.001,372.65
142.919,-0.001,372.65
143.193,-0.001,372.65
143.468,-0.001,372.4
143.925,-0.001,371.9
144.199,-0.001,371.65
144.473,-0.001,371.15
144.932,-0.001,371.15
145.205,-0.001,371.15
145.48,-0.001,370.65
145.937,-0.0,370.4
146.211,-0.001,370.15
146.76,-0.0,370.15
146.943,-0.001,369.9
147.492,-0.0,369.4
147.766,-0.0,369.15
147.949,-0.0,369.15
148.223,-0.0,369.15
148.68,0.0,368.65
148.955,0.0,368.65
149.412,-0.0,368.4
149.687,0.0,367.9
149.96,0.0,367.9
150.509,0.0,367.9
150.692,0.0,367.9
151.241,0.0,367.15
151.516,-0.0,367.15
151.972,0.001,366.65
152.247,0.0,366.9
152.521,0.001,366.4
152.979,0.001,366.65
153.253,0.001,365.65
153.528,0.001,365.9
153.984,0.001,365.9
154.259,0.001,365.9
154.533,0.001,365.65
154.991,0.001,365.15
155.265,0.001,364.9
155.539,0.001,364.9
155.996,0.0,364.15
156.271,0.001,364.9
156.545,0.0,364.4
157.003,0.001,364.4
157.277,0.001,363.9
157.552,0.002,363.9
158.009,0.002,363.9
158.283,0.001,363.4
158.74,0.001,363.65
159.015,0.001,363.4
159.472,0.001,363.4
159.747,0.002,363.15
160.295,0.001,362.9
160.478,0.001,363.15
160.844,0.001,362.9
161.484,0.001,362.4
161.759,0.001,362.15
162.033,0.001,362.15
162.764,0.002,362.4
163.039,0.002,361.9
163.313,0.002,361.65
163.771,0.001,361.15
164.045,0.002,361.15
164.502,0.002,360.9
164.776,0.002,360.4
165.051,0.002,360.65
165.325,0.002,360.65
165.782,0.002,360.65
166.056,0.002,360.65
166.331,0.002,360.4
166.788,0.002,360.15
167.062,0.002,360.4
167.246,0.002,360.4
167.794,0.002,359.65
168.068,0.002,359.9
168.251,0.002,359.9
168.8,0.002,359.65
169.257,0.002,359.65
169.531,0.002,359.15
169.806,0.002,359.4
170.08,0.002,359.15
170.538,0.002,358.9
170.903,0.002,358.9
171.269,0.002,358.15
171.543,0.002,358.65
171.818,0.001,358.15
172.275,0.002,358.15
172.55,0.002,357.9
172.824,0.002,357.9
173.281,0.002,357.65
173.555,0.002,357.4
174.104,0.002,357.4
174.287,0.002,357.4
174.562,0.002,357.15
175.11,0.003,356.4
175.294,0.002,356.9
175.842,0.002,356.4
176.025,0.002,356.9
176.482,0.002,356.4
176.848,0.002,356.15
177.031,0.002,356.15
177.306,0.003,356.65
177.854,0.002,356.4
178.037,0.003,356.15
178.311,0.002,355.9
178.859,0.003,355.9
179.043,0.002,355.15
179.317,0.002,355.4
179.866,0.003,355.15
180.049,0.003,355.65
180.323,0.003,355.15
180.872,0.002,354.9
181.329,0.003,355.4
181.603,0.003,355.15
182.061,0.003,354.9
182.335,0.002,354.9
182.61,0.003,354.9
183.067,0.003,354.4
183.341,0.003,354.15
183.615,0.003,354.4
183.89,0.003,354.4
184.347,0.003,353.65
184.622,0.004,353.9
184.805,0.003,353.65
185.353,0.004,353.65
185.627,0.003,353.4
185.994,0.004,353.65
186.359,0.004,353.4
186.634,0.004,353.65
186.817,0.004,353.15
187.366,0.004,353.15
187.64,0.004,352.65
188.098,0.004,353.15
188.646,0.004,352.4
188.829,0.004,352.65
189.103,0.004,352.4
189.835,0.004,352.15
190.11,0.005,352.4
190.384,0.004,351.9
190.658,0.004,351.9
191.115,0.004,351.65
191.39,0.005,351.15
191.664,0.004,351.65
192.122,0.005,351.65
192.579,0.004,351.15
192.854,0.004,351.4
193.402,0.004,350.9
193.585,0.004,351.15
193.859,0.004,351.4
194.408,0.004,350.65
194.591,0.005,350.9
194.866,0.005,350.65
195.415,0.004,350.9
195.598,0.005,350.65
195.872,0.005,350.65
196.421,0.005,350.15
196.512,0.005,350.15
197.152,0.005,350.15
197.427,0.005,350.4
197.884,0.005,350.15
198.159,0.006,350.15
198.433,0.005,349.4
198.891,0.006,348.9
199.165,0.006,349.65
199.439,0.006,349.9
199.896,0.005,349.65
200.171,0.006,349.4
200.628,0.006,349.4
200.903,0.006,348.9
201.177,0.006,348.9
201.634,0.005,348.15
201.908,0.005,348.9
202.366,0.006,348.4
202.64,0.006,348.4
202.915,0.006,348.15
203.372,0.006,347.9
203.647,0.005,347.65
204.195,0.005,347.9
204.47,0.005,347.65
204.653,0.006,348.15
205.201,0.006,348.15
205.384,0.005,348.15
205.659,0.006,347.9
206.208,0.006,347.9
206.391,0.006,347.65
206.665,0.005,347.65
207.214,0.006,347.4
207.397,0.006,346.9
207.945,0.006,346.9
208.22,0.005,346.9
208.677,0.006,347.15
208.952,0.005,346.65
209.135,0.006,347.15
209.683,0.005,346.9
209.957,0.006,346.65
210.415,0.006,346.9
210.689,0.005,346.65
210.872,0.005,346.65
210.964,0.005,346.65
212.427,0.006,345.9
212.701,0.005,346.15
213.159,0.006,345.9
213.433,0.005,345.4
213.708,0.006,345.65
214.165,0.005,345.4
214.44,0.006,345.4
214.714,0.005,345.4
215.171,0.005,345.15
215.72,0.005,345.4
215.903,0.005,344.9
216.177,0.005,345.4
216.726,0.005,345.15
216.909,0.005,345.15
217.458,0.005,344.4
217.732,0.005,344.4
218.189,0.005,344.4
218.464,0.005,344.9
218.921,0.005,344.65
219.196,0.005,344.4
219.745,0.005,343.9
219.928,0.005,344.4
220.476,0.005,344.15
220.75,0.005,343.65
220.842,0.005,343.65
